Accel_x,Accel_y,Accel_z
-0.081,-0.359,1.403
-0.112,-0.39,1.285
-0.075,-0.148,1.254
0.011,-0.353,1.168
-0.027,-0.268,1.134
-0.057,-0.248,1.042
-0.064,-0.262,0.948
-0.081,-0.252,0.919
-0.018,-0.234,0.93
-0.066,-0.229,0.9
-0.061,-0.221,0.866
-0.045,-0.197,0.847
-0.01,-0.184,0.847
0.033,-0.163,0.942
-0.041,-0.177,0.689
-0.073,-0.154,0.781
-0.019,-0.126,0.9
-0.007,-0.1,0.873
0.038,-0.097,0.875
0.06,-0.098,0.862
0.034,-0.085,0.837
0.044,-0.052,0.835
-0.01,-0.027,0.774
-0.098,-0.007,0.786
0.023,0.026,0.834
0.061,0.015,0.822
0.161,0.011,0.827
0.166,0.019,0.769
0.108,0.036,0.747
0.129,0.072,0.757
0.175,0.08,0.746
0.146,0.093,0.72
0.209,0.105,0.742
0.212,0.122,0.756
0.179,0.126,0.768
0.245,0.159,0.785
0.256,0.154,0.785
0.217,0.163,0.779
0.246,0.189,0.824
0.229,0.188,0.836
0.261,0.214,0.85
0.25,0.207,0.86
0.233,0.216,0.869
0.244,0.252,0.904
0.282,0.233,0.956
0.261,0.226,0.944
0.254,0.252,0.964
0.242,0.222,1.013
0.225,0.227,1.025
0.183,0.239,1.018
0.175,0.23,1.022
0.172,0.215,1.041
0.168,0.179,1.057
0.163,0.151,1.101
0.147,0.142,1.158
0.139,0.131,1.187
0.131,0.132,1.241
0.118,0.14,1.298
0.105,0.135,1.315
0.095,0.129,1.345
0.094,0.147,1.328
0.099,0.15,1.294
0.101,0.178,1.338
0.121,0.198,1.386
0.11,0.208,1.434
0.101,0.219,1.454
0.105,0.235,1.457
0.121,0.247,1.464
0.152,0.255,1.475
0.162,0.264,1.496
0.17,0.265,1.498
0.176,0.264,1.533
0.185,0.257,1.552
0.178,0.249,1.563
0.176,0.243,1.579
0.149,0.23,1.58
0.138,0.218,1.574
0.134,0.212,1.577
0.138,0.189,1.557
0.105,0.181,1.476
0.07,0.204,1.463
0.078,0.22,1.43
0.101,0.223,1.394
0.133,0.232,1.368
0.155,0.229,1.317
0.22,0.189,1.296
0.241,0.274,1.328
0.182,0.316,1.257
0.178,0.314,1.183
0.196,0.299,1.082
0.237,0.284,1.045
0.252,0.308,0.954
0.255,0.328,0.846
0.252,0.352,0.799
0.269,0.362,0.731
0.279,0.368,0.671
0.306,0.359,0.64
0.337,0.34,0.599
0.323,0.363,0.534
0.423,0.126,0.568
0.369,0.218,0.513
0.306,0.172,0.392
0.357,-0.179,0.446
0.392,-0.065,0.707
0.2,0.229,0.586
0.237,-0.005,0.423
0.446,-0.095,0.489
0.402,-0.085,0.472
0.376,-0.127,0.421
0.39,-0.165,0.427
0.424,-0.207,0.44
0.432,-0.213,0.445
0.446,-0.294,0.452
0.412,-0.281,0.435
0.426,-0.351,0.432
0.429,-0.444,0.424
0.395,-0.454,0.374
0.357,-0.563,0.347
0.335,-0.659,0.31
0.379,-0.862,0.671
0.4,-0.884,0.68
0.427,-0.894,0.689
0.464,-0.915,0.704
0.494,-0.922,0.721
0.528,-0.918,0.726
0.555,-0.904,0.728
0.569,-0.895,0.715
0.59,-0.884,0.705
0.608,-0.88,0.674
0.611,-0.872,0.637
0.606,-0.861,0.62
0.595,-0.863,0.58
0.59,-0.87,0.548
0.579,-0.873,0.52
0.566,-0.884,0.513
0.566,-0.899,0.505
0.537,-0.893,0.49
0.546,-0.867,0.494
0.526,-0.887,0.494
0.518,-0.887,0.496
0.518,-0.885,0.507
0.53,-0.889,0.521
0.529,-0.893,0.526
0.506,-0.879,0.516
0.498,-0.881,0.553
0.486,-0.834,0.582
0.45,-0.827,0.595
0.418,-0.79,0.602
0.271,-0.77,0.61
0.357,-0.756,0.599
0.343,-0.732,0.593
0.315,-0.696,0.579
0.293,-0.663,0.525
0.265,-0.642,0.485
0.261,-0.618,0.478
0.268,-0.613,0.494
0.276,-0.61,0.499
0.253,-0.582,0.495
0.24,-0.56,0.505
0.234,-0.547,0.523
0.255,-0.527,0.541
0.244,-0.517,0.549
0.251,-0.475,0.577
0.268,-0.435,0.61
0.264,-0.46,0.618
0.256,-0.402,0.613
0.243,-0.37,0.646
0.227,-0.306,0.673
0.214,-0.244,0.718
0.183,-0.202,0.729
0.156,-0.173,0.723
0.152,-0.141,0.735
0.145,-0.108,0.758
0.135,-0.085,0.762
0.116,-0.049,0.766
0.128,-0.082,0.749
0.153,-0.069,0.767
0.156,-0.03,0.769
0.14,-0.001,0.666
0.116,0.037,0.738
0.223,0.029,0.804
0.244,0.002,0.816
0.169,0.023,0.736
0.199,0.064,0.747
0.235,0.225,0.909
0.172,0.39,0.918
0.191,0.179,0.766
0.232,0.136,0.79
0.269,0.175,0.833
0.219,0.285,0.894
0.197,0.311,0.878
0.205,0.3,0.878
0.223,0.283,0.898
0.248,0.281,0.915
0.253,0.268,0.919
0.252,0.278,0.915
0.253,0.27,0.904
0.217,0.236,0.854
0.164,0.284,0.905
0.281,0.261,0.965
0.328,0.243,0.972
0.324,0.224,0.945
0.285,0.242,0.949
0.294,0.243,0.994
0.295,0.237,1.017
0.322,0.231,1.045
0.348,0.212,1.078
0.346,0.203,1.083
0.346,0.162,1.093
0.35,0.142,1.117
0.333,0.121,1.125
0.308,0.096,1.124
0.289,0.065,1.134
0.285,0.061,1.173
0.302,0.058,1.181
0.296,0.046,1.166
0.294,0.052,1.182
0.305,0.06,1.213
0.304,0.059,1.199
0.288,0.052,1.183
0.278,0.058,1.167
0.279,0.068,1.176
0.285,0.059,1.175
0.279,0.059,1.166
0.294,0.063,1.153
0.296,0.057,1.143
0.295,0.055,1.129
0.288,0.047,1.112
0.294,0.036,1.111
0.291,0.022,1.1
0.287,0.024,1.097
0.259,-0.017,1.092
0.25,-0.036,1.114
0.269,-0.037,1.119
0.262,-0.052,1.119
0.256,-0.069,1.13
0.262,-0.08,1.14
0.264,-0.097,1.145
0.549,-0.659,0.712
0.46,-0.16,0.076
0.597,-0.503,0.196
0.63,-0.425,0.309
0.831,-0.569,0.164
0.882,-0.743,0.25
0.897,-0.824,0.436
0.784,-0.954,0.447
0.688,-1.047,0.329
0.709,-1.039,0.338
0.722,-1.031,0.362
0.717,-1.11,0.245
0.62,-1.181,0.211
0.554,-1.307,0.288
0.553,-1.571,0.497
0.537,-1.719,0.757
0.46,-1.737,0.967
0.385,-1.821,1.196
0.276,-1.788,1.317
0.217,-1.676,1.544
0.155,-1.614,1.747
0.117,-1.466,1.814
0.092,-1.33,1.888
0.038,-1.26,1.919
-0.014,-1.128,1.902
-0.127,-1.02,1.702
-0.131,-0.93,1.638
-0.167,-0.889,1.595
-0.242,-0.837,1.407
-0.248,-0.814,1.262
-0.194,-0.886,1.171
-0.305,-0.669,0.986
-0.203,-0.703,0.846
-0.184,-0.673,0.739
-0.095,-0.697,0.7
-0.095,-0.692,0.673
-0.146,-0.55,0.473
-0.073,-0.54,0.489
0.109,-0.544,0.533
0.169,-0.549,0.51
0.225,-0.558,0.492
0.259,-0.556,0.495
0.346,-0.541,0.515
0.45,-0.495,0.655
0.334,-0.538,0.479
0.523,-0.508,0.716
0.563,-0.452,0.609
0.585,-0.453,0.56
0.623,-0.443,0.592
0.636,-0.424,0.616
0.633,-0.411,0.643
0.64,-0.402,0.642
0.674,-0.393,0.642
0.699,-0.302,0.757
0.735,-0.225,0.647
0.79,-0.537,0.713
0.784,-0.381,0.775
0.656,-0.374,0.748
0.72,-0.433,0.785
0.722,-0.457,0.851
0.696,-0.451,0.857
0.693,-0.494,0.872
0.681,-0.526,0.885
0.636,-0.552,0.885
0.602,-0.587,0.887
0.586,-0.644,0.899
0.58,-0.691,0.914
0.567,-0.712,0.92
0.539,-0.782,0.938
0.521,-0.802,0.945
0.516,-0.826,0.99
0.46,-0.824,0.974
0.424,-0.772,0.988
0.4,-0.768,1.006
0.386,-0.715,1.003
0.398,-0.742,1
0.402,-0.751,0.969
0.351,-0.71,0.939
0.355,-0.689,0.89
0.339,-0.675,0.85
0.347,-0.661,0.838
0.354,-0.67,0.836
0.346,-0.649,0.778
0.334,-0.647,0.788
0.315,-0.564,0.71
0.338,-0.584,0.719
0.333,-0.542,0.707
0.31,-0.517,0.683
0.316,-0.533,0.748
0.28,-0.545,0.748
0.204,-0.508,0.744
0.191,-0.5,0.775
0.192,-0.519,0.806
0.174,-0.534,0.846
0.153,-0.528,0.855
0.113,-0.497,0.863
0.094,-0.464,0.87
0.093,-0.44,0.871
0.099,-0.429,0.855
0.106,-0.405,0.845
0.11,-0.371,0.834
0.109,-0.353,0.827
0.104,-0.315,0.822
0.095,-0.279,0.822
0.092,-0.252,0.827
0.072,-0.266,0.629
-0.002,-0.138,0.612
0.049,-0.097,0.778
0.079,-0.089,0.74
0.032,-0.031,0.728
-0.028,0.016,0.672
-0.074,0.048,0.628
-0.033,0.039,0.669
-0.003,0.01,0.71
-0.021,0.081,0.742
-0.109,0.273,0.754
-0.037,0.039,0.708
0.01,-0.058,0.72
0.023,0,0.791
0.788,-1.286,0.059
0.794,-1.347,0.114
0.81,-1.34,0.206
0.874,-1.349,0.266
0.894,-1.376,0.346
0.898,-1.364,0.428
0.956,-1.367,0.507
0.985,-1.358,0.691
0.97,-1.334,0.86
0.948,-1.326,1.062
0.931,-1.315,1.155
0.807,-1.218,1.288
0.734,-1.165,1.427
0.604,-1.111,1.488
0.448,-1.052,1.509
0.385,-1.032,1.44
0.235,-1.018,1.391
0.12,-0.989,1.294
0.052,-0.928,1.203
-0.087,-0.877,1.147
-0.193,-0.784,1.116
-0.232,-0.752,1.027
-0.239,-0.729,0.918
-0.224,-0.681,0.903
-0.157,-0.667,0.841
-0.112,-0.663,0.776
0.007,-0.639,0.76
0.135,-0.59,0.744
0.205,-0.538,0.716
0.335,-0.519,0.67
0.473,-0.492,0.656
0.588,-0.496,0.588
0.673,-0.431,0.665
0.751,-0.399,0.665
0.81,-0.417,0.637
0.836,-0.423,0.635
0.873,-0.429,0.648
0.904,-0.43,0.632
0.951,-0.45,0.619
0.977,-0.454,0.628
0.977,-0.449,0.661
0.975,-0.45,0.716
0.964,-0.453,0.736
0.956,-0.488,0.774
0.946,-0.509,0.824
0.909,-0.534,0.832
0.891,-0.562,0.855
0.879,-0.578,0.874
0.867,-0.61,0.877
0.864,-0.626,0.877
0.846,-0.629,0.871
0.828,-0.637,0.864
0.81,-0.646,0.847
0.803,-0.651,0.833
0.772,-0.658,0.801
0.791,-0.69,0.843
0.751,-0.515,0.794
0.703,-0.649,0.763
0.685,-0.645,0.753
0.666,-0.619,0.751
0.624,-0.61,0.741
0.583,-0.612,0.732
0.567,-0.625,0.727
0.547,-0.633,0.73
0.526,-0.641,0.732
0.519,-0.653,0.744
0.506,-0.663,0.755
0.486,-0.677,0.76
0.475,-0.67,0.76
0.471,-0.684,0.768
0.469,-0.696,0.773
0.447,-0.686,0.775
0.435,-0.642,0.79
0.381,-0.612,0.78
0.342,-0.535,0.789
0.34,-0.467,0.809
0.317,-0.456,0.773
0.257,-0.442,0.747
0.223,-0.421,0.689
0.178,-0.419,0.653
0.172,-0.425,0.638
0.173,-0.43,0.608
0.17,-0.436,0.59
0.169,-0.441,0.584
0.175,-0.447,0.586
0.18,-0.449,0.603
0.199,-0.446,0.632
0.216,-0.431,0.65
0.233,-0.414,0.685
0.237,-0.386,0.721
0.246,-0.369,0.739
0.248,-0.322,0.773
0.243,-0.257,0.813
0.214,-0.225,0.831
0.18,-0.166,0.833
0.162,-0.119,0.825
0.142,-0.102,0.814
0.129,-0.074,0.804
0.122,-0.058,0.773
0.109,-0.05,0.732
0.102,-0.042,0.713
0.104,-0.043,0.692
0.113,-0.043,0.687
0.126,-0.061,0.686
0.137,-0.068,0.696
0.157,-0.069,0.714
0.178,-0.071,0.73
0.199,-0.056,0.758
0.209,-0.024,0.796
0.233,-0.002,0.815
0.367,0.049,0.854
0.257,0.076,0.893
0.268,0.135,0.91
0.271,0.196,0.933
0.271,0.221,0.943
0.266,0.258,0.938
0.267,0.271,0.916
0.262,0.281,0.896
0.274,0.261,0.896
0.746,-1.2,0.404
0.818,-0.895,0.433
0.454,-0.959,0.474
0.502,-1.209,0.407
0.549,-1.199,0.444
0.565,-1.268,0.449
0.576,-1.328,0.444
0.579,-1.292,0.431
0.546,-1.341,0.463
0.575,-1.365,0.486
0.571,-1.362,0.511
0.571,-1.349,0.608
0.558,-1.304,0.665
0.545,-1.245,0.8
0.52,-1.216,0.911
0.487,-1.167,0.965
0.44,-1.104,1.047
0.415,-1.033,1.099
0.375,-1.007,1.115
0.356,-0.965,1.249
0.323,-0.924,1.119
0.301,-0.888,1.097
0.251,-0.871,1.081
0.21,-0.846,1.041
0.191,-0.823,1.001
0.159,-0.808,0.977
0.14,-0.772,0.931
0.14,-0.733,0.882
0.151,-0.712,0.841
0.174,-0.67,0.815
0.186,-0.636,0.76
0.22,-0.623,0.735
0.272,-0.598,0.691
0.302,-0.577,0.652
0.361,-0.565,0.512
0.423,-0.54,0.61
0.447,-0.515,0.596
0.5,-0.506,0.581
0.549,-0.489,0.579
0.574,-0.463,0.576
0.62,-0.459,0.576
0.657,-0.467,0.584
0.668,-0.463,0.594
0.689,-0.434,0.603
0.686,-0.464,0.619
0.712,-0.482,0.63
0.731,-0.503,0.633
0.734,-0.524,0.665
0.73,-0.529,0.688
0.717,-0.548,0.706
0.713,-0.594,0.739
0.702,-0.615,0.756
0.679,-0.656,0.765
0.66,-0.702,0.78
0.623,-0.723,0.787
0.608,-0.75,0.801
0.575,-0.756,0.806
0.544,-0.773,0.809
0.544,-0.781,0.817
0.545,-0.777,0.79
0.468,-0.761,0.774
0.435,-0.811,0.712
0.47,-0.798,0.753
0.438,-0.744,0.706
0.429,-0.764,0.682
0.448,-0.77,0.688
0.442,-0.761,0.679
0.474,-0.78,0.673
0.439,-0.77,0.67
0.442,-0.77,0.682
0.458,-0.766,0.72
0.485,-0.749,0.783
0.489,-0.727,0.824
0.424,-0.719,0.774
0.391,-0.695,0.795
0.394,-0.635,0.898
0.391,-0.651,0.906
0.373,-0.68,0.903
0.344,-0.668,0.904
0.325,-0.646,0.876
0.34,-0.663,1.036
0.362,-0.663,1.004
0.332,-0.733,0.831
0.309,-0.652,0.945
0.328,-0.669,0.84
0.347,-0.691,0.825
0.322,-0.619,0.811
0.3,-0.573,0.774
0.289,-0.54,0.786
0.252,-0.469,0.782
0.228,-0.414,0.773
0.218,-0.395,0.768
0.198,-0.369,0.761
0.192,-0.351,0.75
0.17,-0.34,0.752
0.14,-0.301,0.756
0.112,-0.261,0.762
0.099,-0.246,0.766
0.085,-0.233,0.768
0.075,-0.236,0.773
0.069,-0.238,0.777
0.058,-0.231,0.791
0.047,-0.201,0.804
0.044,-0.158,0.821
0.042,-0.139,0.831
0.042,-0.109,0.833
0.047,-0.094,0.827
0.058,-0.085,0.832
0.069,-0.051,0.842
0.064,-0.02,0.817
0.046,0.067,0.738
0.089,0.098,0.781
0.129,0.128,0.825
0.131,0.14,0.82
0.123,0.167,0.813
0.117,0.2,0.795
0.095,0.209,0.762
0.106,0.215,0.761
0.115,0.231,0.789
0.692,-0.938,0.52
0.687,-0.937,0.563
0.604,-0.932,0.527
0.69,-0.948,0.631
0.757,-0.981,0.791
0.718,-0.935,0.887
0.626,-0.944,0.93
0.588,-0.953,1.022
0.53,-0.951,1.143
0.475,-0.944,1.232
0.439,-0.924,1.264
0.416,-0.923,1.342
0.364,-0.911,1.422
0.259,-0.854,1.425
0.172,-0.828,1.427
0.15,-0.8,1.418
0.116,-0.793,1.413
0.091,-0.764,1.388
0.028,-0.743,1.274
0.014,-0.723,1.2
-0.003,-0.705,1.142
0.002,-0.678,1.076
0.002,-0.65,1.04
0.006,-0.619,0.97
0.026,-0.604,0.915
0.062,-0.583,0.893
0.09,-0.565,0.871
0.15,-0.563,0.832
0.213,-0.549,0.821
0.245,-0.521,0.802
0.318,-0.517,0.767
0.384,-0.487,0.753
0.419,-0.469,0.745
0.472,-0.459,0.74
0.524,-0.449,0.737
0.56,-0.445,0.736
0.57,-0.433,0.739
0.591,-0.435,0.745
0.611,-0.448,0.744
0.624,-0.463,0.747
0.645,-0.476,0.751
0.651,-0.486,0.765
0.662,-0.489,0.78
0.655,-0.492,0.779
0.643,-0.492,0.768
0.633,-0.487,0.779
0.613,-0.498,0.804
0.592,-0.505,0.804
0.561,-0.518,0.83
0.543,-0.576,0.836
0.488,-0.597,0.829
0.436,-0.632,0.827
0.416,-0.661,0.814
0.402,-0.666,0.804
0.392,-0.68,0.836
0.353,-0.694,0.862
0.31,-0.702,0.875
0.305,-0.706,0.911
0.305,-0.702,0.909
0.311,-0.718,0.913
0.323,-0.712,0.917
0.321,-0.708,0.906
0.315,-0.696,0.907
0.302,-0.657,0.903
0.278,-0.587,0.891
0.248,-0.503,0.867
0.223,-0.427,0.852
0.213,-0.367,0.811
0.193,-0.346,0.774
0.183,-0.264,0.747
0.174,-0.234,0.718
0.171,-0.183,0.71
0.178,-0.145,0.682
0.193,-0.119,0.677
0.214,-0.104,0.675
0.231,-0.083,0.693
0.249,-0.045,0.705
0.254,0.005,0.731
0.261,0.055,0.751
0.268,0.076,0.772
0.275,0.113,0.8
0.274,0.153,0.828
0.263,0.212,0.839
0.244,0.263,0.854
0.233,0.302,0.852
0.211,0.318,0.852
0.182,0.345,0.841
0.152,0.365,0.828
0.122,0.385,0.819
0.114,0.383,0.811
0.111,0.371,0.807
0.102,0.364,0.799
0.094,0.356,0.791
0.081,0.348,0.802
0.076,0.346,0.81
0.081,0.338,0.836
0.085,0.311,0.87
0.087,0.331,0.927
0.074,0.341,0.947
0.038,0.44,0.985
-0.002,0.451,0.939
0.073,0.316,0.9
0.107,0.292,0.914
0.077,0.399,0.953
0.068,0.412,0.943
0.053,0.406,0.954
0.061,0.369,0.969
0.083,0.34,0.975
0.089,0.317,0.993
0.091,0.3,1.024
0.087,0.276,1.037
0.084,0.254,1.065
0.082,0.244,1.088
0.084,0.215,1.099
0.085,0.192,1.113
0.088,0.178,1.126
0.088,0.152,1.131
0.087,0.137,1.145
0.087,0.132,1.146
0.816,-1.511,-0.01
0.966,-1.731,0.107
1.22,-1.844,0.367
1.341,-2.081,0.693
1.22,-1.969,0.853
1.236,-1.994,0.912
1.223,-1.851,1.219
1.134,-1.668,1.659
1.072,-1.525,2.114
0.891,-1.214,2.268
0.822,-0.983,2.578
0.605,-0.885,2.745
0.285,-0.671,2.874
-0.141,-0.717,2.975
-0.325,-1.076,2.743
-0.603,-1.2,2.467
-0.815,-1.526,2.323
-0.867,-1.643,1.852
-0.97,-1.594,1.562
-0.962,-1.354,0.929
-0.864,-1.036,0.534
-0.585,-0.886,0.382
-0.283,-0.679,0.139
-0.169,-0.493,-0.043
0.067,-0.392,-0.227
0.274,-0.283,-0.186
0.391,-0.171,-0.187
0.558,-0.123,-0.164
0.678,-0.049,-0.142
0.747,0.026,-0.072
0.856,0.048,0.014
0.921,0.053,0.07
0.939,0.063,0.141
0.955,0.042,0.159
0.938,-0.039,0.185
0.937,-0.106,0.22
0.887,-0.129,0.219
0.809,-0.127,0.216
0.787,-0.128,0.22
0.748,-0.125,0.211
0.716,-0.149,0.212
0.696,-0.208,0.236
0.659,-0.251,0.293
0.619,-0.341,0.333
0.601,-0.42,0.415
0.576,-0.454,0.508
0.546,-0.488,0.565
0.49,-0.509,0.648
0.494,-0.532,0.669
0.537,-0.573,0.678
0.612,-0.619,0.732
0.634,-0.601,0.75
0.652,-0.592,0.765
0.681,-0.587,0.755
0.717,-0.601,0.764
0.72,-0.596,0.726
0.741,-0.598,0.731
0.737,-0.593,0.724
0.734,-0.594,0.715
0.727,-0.577,0.712
0.714,-0.579,0.715
0.707,-0.594,0.7
0.696,-0.599,0.681
0.694,-0.608,0.669
0.665,-0.615,0.649
0.643,-0.612,0.613
0.659,-0.618,0.613
0.663,-0.607,0.63
0.662,-0.583,0.663
0.677,-0.609,0.697
0.683,-0.691,0.703
0.663,-0.727,0.705
0.613,-0.776,0.724
0.562,-0.798,0.773
0.538,-0.798,0.817
0.505,-0.776,0.835
0.492,-0.755,0.867
0.494,-0.708,0.877
0.426,-0.671,0.893
0.392,-0.613,0.893
0.385,-0.552,0.883
0.373,-0.524,0.871
0.376,-0.48,0.862
0.378,-0.449,0.832
0.388,-0.437,0.811
0.401,-0.418,0.801
0.413,-0.399,0.781
0.418,-0.361,0.779
0.425,-0.337,0.791
0.424,-0.288,0.796
0.418,-0.226,0.811
0.399,-0.194,0.82
0.383,-0.135,0.837
0.377,-0.078,0.861
0.359,-0.055,0.896
0.333,0.002,0.915
0.324,0.007,0.908
0.269,0.061,0.872
0.245,0.133,0.812
0.274,0.136,0.895
0.283,0.136,0.912
0.272,0.133,0.901
0.251,0.137,0.869
0.209,0.147,0.824
0.213,0.171,0.808
0.229,0.192,0.828
0.271,0.183,0.841
0.29,0.171,0.838
0.322,0.17,0.836
0.331,0.16,0.869
0.339,0.209,0.92
0.23,0.549,0.936
0.241,0.529,0.851
0.362,0.299,0.832
0.375,0.3,0.849
0.355,0.395,0.864
0.31,0.491,0.857
0.299,0.506,0.851
0.303,0.488,0.855
0.896,-1.016,0.499
0.892,-1.311,0.197
0.982,-1.758,0.325
0.563,-1.033,0.322
0.794,-1.412,0.715
1.043,-1.771,0.869
0.995,-1.737,0.694
0.955,-1.718,0.6
0.942,-1.619,0.692
0.994,-1.574,0.909
0.999,-1.5,1.086
0.892,-1.349,1.24
0.825,-1.175,1.501
0.572,-0.959,1.551
0.386,-0.92,1.559
0.39,-0.887,1.61
0.391,-0.873,1.694
0.327,-0.857,1.852
0.193,-0.842,1.709
0.065,-0.833,1.595
-0.161,-0.85,1.473
-0.257,-0.867,1.533
-0.401,-0.858,1.477
-0.454,-0.85,1.276
-0.501,-0.866,1.113
-0.439,-0.927,1.036
-0.387,-0.874,0.924
-0.335,-0.837,0.832
-0.277,-0.8,0.775
-0.226,-0.758,0.68
-0.116,-0.711,0.642
0.044,-0.651,0.651
0.158,-0.64,0.614
0.215,-0.61,0.56
0.328,-0.596,0.537
0.443,-0.578,0.492
0.495,-0.563,0.454
0.598,-0.526,0.434
0.678,-0.468,0.409
0.704,-0.424,0.392
0.731,-0.403,0.392
0.706,-0.374,0.426
0.701,-0.439,0.403
0.735,-0.484,0.387
0.734,-0.523,0.392
0.724,-0.576,0.438
0.683,-0.603,0.478
0.637,-0.685,0.508
0.609,-0.736,0.534
0.566,-0.77,0.584
0.527,-0.834,0.596
0.503,-0.871,0.592
0.474,-0.886,0.605
0.457,-0.897,0.615
0.466,-0.866,0.656
0.478,-0.815,0.739
0.491,-0.817,0.749
0.492,-0.841,0.716
0.511,-0.836,0.739
0.534,-0.832,0.749
0.538,-0.828,0.758
0.544,-0.82,0.769
0.554,-0.794,0.788
0.555,-0.77,0.821
0.549,-0.728,0.805
0.541,-0.706,0.796
0.561,-0.676,0.803
0.57,-0.652,0.815
0.574,-0.63,0.799
0.559,-0.577,0.792
0.551,-0.511,0.782
0.529,-0.477,0.769
0.5,-0.405,0.767
0.488,-0.349,0.764
0.462,-0.326,0.736
0.431,-0.301,0.724
0.425,-0.299,0.724
0.415,-0.3,0.712
0.403,-0.31,0.706
0.398,-0.309,0.714
0.395,-0.3,0.742
0.392,-0.292,0.772
0.386,-0.28,0.783
0.385,-0.257,0.824
0.386,-0.136,0.832
0.328,-0.18,0.78
0.304,-0.056,0.716
0.349,0.014,0.878
0.355,0.046,0.878
0.302,0.111,0.858
0.142,0.173,0.752
0.173,0.265,0.689
0.186,0.277,0.738
0.201,0.287,0.762
0.203,0.288,0.773
0.196,0.491,0.765
0.092,0.547,0.755
0.197,0.251,0.684
0.224,0.145,0.694
0.24,0.2,0.722
0.192,0.327,0.736
0.178,0.348,0.763
0.162,0.356,0.79
0.174,0.315,0.851
0.189,0.328,0.871
0.212,0.341,0.876
0.206,0.346,0.867
0.192,0.354,0.878
0.163,0.38,0.884
0.171,0.392,0.912
0.207,0.371,0.916
0.223,0.36,0.934
0.255,0.366,0.935
0.24,0.38,0.931
0.233,0.372,0.927
0.239,0.366,0.924
0.246,0.347,0.93
0.241,0.339,0.929
0.246,0.326,0.937
1.263,-0.828,0.192
1.006,-0.732,-0.18
1.161,-1.103,0.121
1.111,-0.748,0.113
1.178,-1.074,-0.155
1.253,-1.168,-0.254
1.262,-1.168,-0.238
1.288,-1.258,-0.244
1.301,-1.295,-0.332
1.349,-1.371,-0.292
1.38,-1.453,-0.151
1.356,-1.596,-0.04
1.411,-1.635,0.11
1.491,-1.697,0.242
1.392,-1.628,0.498
1.336,-1.554,0.81
1.188,-1.392,0.95
0.942,-1.189,1.109
0.838,-1.01,1.256
0.623,-0.935,1.343
0.425,-0.856,1.406
0.315,-1.144,1.313
0.209,-1.18,1.195
-0.026,-1.113,1.145
-0.192,-1.157,1.104
-0.263,-1.189,1.166
-0.362,-1.21,1.303
-0.428,-1.256,1.331
-0.451,-1.178,1.324
-0.435,-0.959,1.295
-0.355,-0.843,1.083
-0.261,-0.824,0.996
-0.107,-0.736,0.849
-0.002,-0.672,0.696
0.15,-0.634,0.489
0.29,-0.567,0.407
0.455,-0.585,0.274
0.532,-0.582,0.121
0.684,-0.564,0.058
0.824,-0.488,-0.022
0.89,-0.39,-0.072
1.023,-0.345,-0.075
1.096,-0.27,-0.072
1.142,-0.243,-0.047
1.132,-0.213,-0.04
1.12,-0.238,0.031
1.088,-0.304,0.076
1.03,-0.385,0.16
0.992,-0.433,0.22
0.932,-0.512,0.267
0.83,-0.505,0.393
0.809,-0.632,0.386
0.824,-0.741,0.411
0.822,-0.841,0.426
0.819,-0.876,0.456
0.798,-0.877,0.492
0.779,-0.873,0.51
0.769,-0.872,0.523
0.772,-0.894,0.517
0.742,-0.927,0.462
0.759,-0.939,0.478
0.77,-0.865,0.503
0.79,-0.807,0.479
0.815,-0.834,0.447
0.847,-0.862,0.436
0.871,-0.823,0.421
0.885,-0.792,0.427
0.929,-0.757,0.461
0.968,-0.795,0.467
0.987,-0.797,0.446
0.981,-0.791,0.445
0.984,-0.781,0.455
0.985,-0.78,0.484
1,-0.773,0.54
1.029,-0.731,0.576
0.991,-0.683,0.578
0.968,-0.593,0.557
0.889,-0.551,0.544
0.816,-0.488,0.54
0.777,-0.452,0.544
0.759,-0.441,0.537
0.72,-0.425,0.526
0.671,-0.415,0.501
0.648,-0.416,0.492
0.612,-0.427,0.497
0.605,-0.447,0.507
0.583,-0.452,0.515
0.575,-0.464,0.517
0.574,-0.478,0.542
0.568,-0.481,0.57
0.564,-0.46,0.591
0.558,-0.405,0.635
0.539,-0.366,0.673
0.496,-0.278,0.689
0.473,-0.22,0.715
0.426,-0.178,0.734
0.343,-0.107,0.711
0.286,-0.073,0.609
0.267,-0.058,0.649
0.299,-0.029,0.694
0.304,-0.025,0.703
0.263,-0.021,0.626
0.198,0,0.592
0.183,0.033,0.595
0.2,0.045,0.627
0.223,0.043,0.66
0.23,0.038,0.661
0.224,0.042,0.655
0.244,0.041,0.691
0.271,0.05,0.733
0.318,0.046,0.763
0.333,0.247,0.813
0.188,0.399,0.751
0.224,0.269,0.724
0.308,0.191,0.811
0.342,0.236,0.834
0.28,0.398,0.822
0.235,0.462,0.803
0.241,0.455,0.8
1.078,-1.103,0.369
0.982,-0.691,0.103
0.722,-0.825,0.198
0.858,-0.899,0.254
0.797,-0.957,0.211
0.799,-1.058,0.49
1.055,-1.147,0.617
0.906,-1.19,0.365
0.95,-1.397,0.31
1.09,-1.418,0.651
1.418,-1.486,0.879
1.2,-1.25,0.792
1.005,-1.089,0.561
0.727,-1.033,0.481
0.913,-1.132,0.6
1.085,-1.157,0.857
1.106,-1.062,1.018
1.06,-1.018,1.195
0.988,-0.986,1.301
0.942,-0.976,1.467
0.766,-0.935,1.538
0.586,-0.862,1.591
0.479,-0.837,1.708
0.41,-0.826,1.773
0.254,-0.817,1.737
0.151,-0.825,1.685
-0.062,-0.84,1.373
-0.022,-0.88,1.238
-0.112,-0.832,1.119
-0.087,-0.789,1.058
-0.144,-0.786,0.845
-0.151,-0.723,0.735
-0.046,-0.645,0.717
0.061,-0.582,0.675
0.097,-0.537,0.583
0.155,-0.51,0.527
0.259,-0.448,0.531
0.382,-0.393,0.529
0.447,-0.353,0.525
0.527,-0.355,0.521
0.58,-0.348,0.513
0.741,-0.342,0.569
0.752,-0.352,0.506
0.76,-0.366,0.528
0.847,-0.359,0.556
0.86,-0.368,0.554
0.887,-0.386,0.57
0.868,-0.475,0.565
0.87,-0.511,0.629
0.886,-0.608,0.661
0.834,-0.686,0.738
0.784,-0.731,0.776
0.697,-0.766,0.82
0.661,-0.854,0.794
0.609,-0.999,0.81
0.607,-1.009,0.86
0.589,-1.01,0.997
0.564,-1.008,0.912
0.562,-0.996,0.975
0.581,-0.993,0.989
0.564,-0.972,0.938
0.52,-0.964,0.905
0.49,-0.965,0.897
0.456,-0.937,0.899
0.428,-0.865,0.847
0.408,-0.835,0.784
0.535,-0.86,0.815
0.559,-0.814,0.79
0.59,-0.802,0.746
0.595,-0.781,0.724
0.591,-0.758,0.691
0.585,-0.728,0.658
0.576,-0.706,0.629
0.58,-0.655,0.621
0.575,-0.609,0.612
0.569,-0.565,0.605
0.583,-0.554,0.603
0.574,-0.535,0.595
0.553,-0.507,0.604
0.542,-0.492,0.635
0.54,-0.442,0.652
0.529,-0.389,0.671
0.503,-0.361,0.673
0.458,-0.318,0.676
0.433,-0.285,0.696
0.422,-0.245,0.715
0.387,-0.222,0.721
0.367,-0.179,0.734
0.354,-0.16,0.727
0.329,-0.134,0.722
0.32,-0.119,0.722
0.317,-0.104,0.721
0.303,-0.099,0.709
0.291,-0.079,0.703
0.291,-0.052,0.707
0.296,-0.041,0.71
0.294,0.001,0.715
0.278,0.045,0.734
0.296,0.025,0.702
0.299,0.106,0.714
0.264,0.193,0.739
0.243,0.227,0.629
0.168,0.325,0.61
0.346,0.336,0.764
0.274,0.336,0.695
0.193,0.403,0.651
0.21,0.414,0.694
0.26,0.413,0.718
0.254,0.41,0.716
0.248,0.409,0.718
0.223,0.436,0.748
0.165,0.529,0.755
0.13,0.539,0.717
0.176,0.423,0.719
0.247,0.359,0.745
0.255,0.401,0.751
0.212,0.425,0.741
0.188,0.428,0.747
0.197,0.376,0.805
0.731,-1.027,0.341
0.748,-1.083,0.362
0.748,-1.222,0.357
0.738,-1.135,0.371
0.739,-1.154,0.382
0.765,-1.192,0.411
0.779,-1.19,0.46
0.762,-1.141,0.496
0.734,-1.107,0.55
0.732,-1.081,0.601
0.69,-1.035,0.646
0.676,-1.011,0.661
0.598,-0.929,0.671
0.532,-0.853,0.732
0.483,-0.812,0.749
0.456,-0.81,0.741
0.418,-0.819,0.738
0.374,-0.824,0.742
0.378,-0.809,0.768
0.371,-0.822,0.784
0.333,-0.823,0.802
0.312,-0.807,0.855
0.307,-0.79,0.891
0.324,-0.79,0.896
0.328,-0.798,0.891
0.333,-0.793,0.887
0.359,-0.79,0.885
0.392,-0.793,0.864
0.406,-0.804,0.829
0.434,-0.806,0.789
0.459,-0.81,0.77
0.494,-0.809,0.736
0.511,-0.815,0.708
0.546,-0.822,0.677
0.587,-0.841,0.664
0.619,-0.858,0.635
0.638,-0.879,0.615
0.69,-0.884,0.601
0.746,-0.911,0.597
0.762,-0.929,0.584
0.784,-0.927,0.574
0.804,-0.956,0.558
0.818,-0.916,0.565
0.818,-0.894,0.559
0.834,-0.91,0.531
0.83,-0.913,0.492
0.823,-0.906,0.481
0.813,-0.891,0.465
0.808,-0.876,0.445
0.794,-0.862,0.426
0.764,-0.845,0.419
0.745,-0.83,0.405
0.714,-0.823,0.401
0.698,-0.813,0.4
0.687,-0.809,0.4
0.682,-0.804,0.407
0.677,-0.803,0.405
0.677,-0.802,0.392
0.689,-0.813,0.399
0.68,-0.81,0.4
0.677,-0.783,0.396
0.677,-0.778,0.407
0.689,-0.749,0.476
0.686,-0.693,0.497
0.679,-0.719,0.481
0.676,-0.695,0.48
0.649,-0.668,0.487
0.638,-0.626,0.513
0.644,-0.599,0.553
0.642,-0.592,0.561
0.62,-0.577,0.571
0.596,-0.555,0.592
0.625,-0.483,0.866
0.607,-0.566,0.878
0.476,-0.501,0.646
0.438,-0.556,0.607
0.381,-0.526,0.59
0.407,-0.462,0.666
0.478,-0.447,0.729
0.509,-0.422,0.756
0.489,-0.42,0.779
0.466,-0.419,0.775
0.413,-0.398,0.774
0.363,-0.346,0.777
0.348,-0.267,0.785
0.336,-0.226,0.796
0.33,-0.159,0.801
0.321,-0.094,0.803
0.301,-0.064,0.806
0.273,-0.026,0.8
0.263,0.001,0.797
0.251,0.014,0.799
0.247,0.046,0.799
0.243,0.051,0.784
0.244,0.054,0.784
0.252,0.052,0.791
0.263,0.044,0.803
0.269,0.051,0.822
0.277,0.061,0.843
0.269,0.097,0.852
0.272,0.078,0.813
0.291,0.123,0.834
0.291,0.173,0.873
0.286,0.187,0.809
0.221,0.254,0.773
0.249,0.281,0.89
0.278,0.284,0.865
0.228,0.305,0.812
0.215,0.308,0.743
0.201,0.355,0.742
0.218,0.344,0.799
0.247,0.326,0.79
0.239,0.301,0.773
0.243,0.279,0.748
0.245,0.271,0.87
0.238,0.258,0.759
0.232,0.126,0.775
0.225,0.231,0.786
0.227,0.203,0.802
0.722,-1.067,-0.264
0.741,-1.199,-0.184
1.034,-1.43,0.115
1.173,-1.719,-0.104
0.892,-1.58,-0.135
1.017,-1.769,-0.183
0.991,-1.882,-0.163
1.133,-1.877,-0.047
1.138,-1.896,-0.09
1.156,-1.871,-0.052
1.182,-1.877,0.201
1.063,-1.851,0.282
1.11,-1.747,0.587
1.064,-1.671,0.981
1.026,-1.452,1.219
0.84,-1.202,1.498
0.694,-1.186,1.584
0.502,-1.221,1.626
0.367,-1.226,1.758
0.294,-1.242,1.88
0.051,-1.268,1.776
-0.27,-1.366,1.75
-0.377,-1.482,1.858
-0.596,-1.505,1.85
-0.737,-1.359,1.931
-0.643,-1.22,1.926
-0.505,-1.099,1.613
-0.266,-1.032,1.49
0.039,-0.937,1.341
0.154,-0.829,1.131
0.333,-0.794,0.891
0.527,-0.756,0.771
0.606,-0.732,0.562
0.746,-0.723,0.396
0.86,-0.705,0.324
0.912,-0.668,0.167
0.975,-0.697,0.17
1.046,-0.537,0.179
1.018,-0.466,0.114
1.037,-0.455,0.165
0.994,-0.449,0.177
0.944,-0.485,0.237
0.911,-0.52,0.296
0.844,-0.535,0.332
0.777,-0.549,0.347
0.735,-0.552,0.397
0.691,-0.581,0.407
0.717,-0.656,0.393
0.868,-0.714,0.418
0.752,-0.725,0.434
0.752,-0.737,0.437
0.762,-0.746,0.458
0.782,-0.749,0.503
0.78,-0.755,0.511
0.779,-0.756,0.522
0.782,-0.756,0.534
0.78,-0.763,0.545
0.777,-0.769,0.574
0.773,-0.785,0.589
0.742,-0.772,0.598
0.724,-0.74,0.609
0.72,-0.733,0.642
0.72,-0.751,0.64
0.712,-0.749,0.616
0.687,-0.742,0.623
0.693,-0.711,0.656
0.693,-0.67,0.685
0.695,-0.692,0.653
0.712,-0.7,0.674
0.723,-0.706,0.692
0.699,-0.705,0.7
0.686,-0.695,0.69
0.659,-0.691,0.676
0.636,-0.675,0.672
0.615,-0.667,0.669
0.604,-0.66,0.66
0.58,-0.634,0.655
0.55,-0.61,0.641
0.536,-0.592,0.622
0.503,-0.555,0.615
0.49,-0.517,0.599
0.458,-0.497,0.593
0.427,-0.448,0.592
0.412,-0.398,0.594
0.385,-0.377,0.593
0.351,-0.339,0.594
0.324,-0.313,0.594
0.315,-0.304,0.595
0.301,-0.294,0.596
0.299,-0.291,0.597
0.296,-0.294,0.609
0.293,-0.292,0.615
0.295,-0.29,0.633
0.3,-0.285,0.651
0.307,-0.264,0.664
0.309,-0.231,0.684
0.318,-0.211,0.697
0.322,-0.165,0.707
0.3,-0.104,0.723
0.29,-0.04,0.75
0.272,-0.001,0.747
0.222,0.046,0.692
0.218,0.072,0.695
0.224,0.091,0.736
0.222,0.102,0.743
0.205,0.108,0.741
0.175,0.121,0.691
0.14,0.128,0.67
0.133,0.142,0.674
0.135,0.141,0.714
0.141,0.122,0.733
0.147,0.124,0.741
0.153,0.148,0.752
0.149,0.187,0.74
0.123,0.217,0.775
0.143,0.242,0.795
0.176,0.243,0.812
0.186,0.37,0.819
0.203,0.266,0.834
0.838,-1.087,-0.408
0.976,-1.212,-0.565
1.1,-1.37,-0.664
1.24,-1.615,-0.689
1.305,-1.553,-0.617
1.372,-1.824,-0.557
1.406,-1.816,-0.478
1.4,-1.825,-0.35
1.362,-1.79,-0.146
1.291,-1.663,0.122
1.198,-1.523,0.382
1.087,-1.331,0.456
0.813,-1.222,0.495
0.595,-1.135,0.538
0.515,-1.25,0.535
0.267,-1.273,0.686
0.129,-1.269,0.794
0.041,-1.337,0.906
-0.109,-1.317,1.159
-0.228,-1.389,1.252
-0.337,-1.399,1.458
-0.374,-1.378,1.665
-0.415,-1.259,1.732
-0.405,-1.119,1.75
-0.408,-0.901,1.621
-0.265,-0.825,1.568
0.044,-0.821,1.415
0.12,-0.841,1.106
0.24,-0.821,0.813
0.373,-0.799,0.692
0.582,-0.771,0.505
0.563,-0.753,0.142
0.775,-0.722,0.08
0.843,-0.601,-0.135
0.919,-0.586,-0.237
1.029,-0.527,-0.282
1.117,-0.5,-0.307
1.177,-0.487,-0.273
1.194,-0.515,-0.196
1.218,-0.527,-0.065
1.183,-0.549,0.112
1.122,-0.594,0.081
1.08,-0.611,0.166
0.996,-0.624,0.251
0.921,-0.673,0.285
0.847,-0.786,0.308
0.821,-0.85,0.373
0.781,-0.857,0.425
0.751,-0.883,0.45
0.732,-0.935,0.497
0.818,-0.966,0.48
0.741,-0.983,0.492
0.71,-0.982,0.495
0.69,-0.978,0.543
0.704,-1.026,0.549
0.673,-1.041,0.493
0.659,-1.042,0.494
0.663,-1.035,0.514
0.688,-1.024,0.528
0.712,-0.98,0.543
0.714,-0.954,0.545
0.746,-0.937,0.547
0.769,-0.864,0.785
0.854,-0.779,0.761
0.683,-0.79,0.449
0.695,-0.762,0.502
0.746,-0.729,0.54
0.629,-0.667,0.621
0.668,-0.634,0.616
0.6,-0.595,0.618
0.545,-0.631,0.614
0.519,-0.662,0.59
0.502,-0.664,0.576
0.543,-0.654,0.583
0.511,-0.626,0.575
0.474,-0.609,0.603
0.4,-0.582,0.595
0.362,-0.553,0.585
0.362,-0.542,0.593
0.363,-0.536,0.59
0.371,-0.536,0.576
0.395,-0.535,0.563
0.433,-0.499,0.549
0.441,-0.472,0.558
0.41,-0.392,0.566
0.367,-0.301,0.604
0.347,-0.265,0.649
0.33,-0.226,0.671
0.328,-0.217,0.714
0.31,-0.22,0.745
0.26,-0.19,0.772
0.255,-0.111,0.84
0.23,-0.068,0.878
0.151,-0.055,0.89
0.137,-0.014,0.913
0.15,0,0.914
0.194,0.002,0.925
0.238,-0.008,0.923
0.256,0,0.909
0.281,0.012,0.891
0.301,0.022,0.853
0.306,0.025,0.812
0.306,0.039,0.801
0.305,0.053,0.787
0.307,0.058,0.775
0.29,0.077,0.774
0.275,0.114,0.797
0.246,0.12,0.794
0.229,0.119,0.781
0.207,0.183,0.8
0.201,0.19,0.819
0.209,0.191,0.826
0.205,0.189,0.811
0.198,0.183,0.785
0.2,0.167,0.793
0.219,0.144,0.813
0.217,0.136,0.793
0.213,0.128,0.787
0.209,0.121,0.783
0.949,-1.161,0.032
0.956,-1.277,0.155
1.143,-1.624,0.432
1.163,-1.926,0.45
0.986,-1.738,0.498
0.847,-1.85,0.552
0.838,-1.969,0.539
0.822,-1.944,0.694
0.767,-1.922,0.872
0.779,-1.871,1.109
0.789,-1.719,1.225
0.756,-1.514,1.442
0.644,-1.416,1.705
0.469,-1.242,1.802
0.25,-1.093,1.997
0.137,-1.049,2.122
-0.128,-1.057,2.135
-0.41,-1.181,2.169
-0.497,-1.358,2.273
-0.752,-1.403,1.955
-0.839,-1.391,1.819
-0.697,-1.209,1.584
-0.631,-1.015,1.316
-0.432,-0.94,1.05
-0.164,-0.782,0.935
-0.041,-0.689,0.732
0.126,-0.679,0.549
0.286,-0.631,0.468
0.445,-0.593,0.241
0.466,-0.498,0.145
0.469,-0.452,0.073
0.52,-0.432,0.036
0.625,-0.4,-0.009
0.671,-0.368,0.007
0.716,-0.364,0.087
0.719,-0.373,0.151
0.726,-0.365,0.271
0.73,-0.37,0.369
0.721,-0.402,0.412
0.718,-0.453,0.483
0.698,-0.471,0.522
0.68,-0.526,0.538
0.677,-0.593,0.556
0.683,-0.635,0.565
0.69,-0.695,0.564
0.672,-0.726,0.558
0.663,-0.747,0.578
0.653,-0.792,0.572
0.655,-0.815,0.578
0.67,-0.806,0.62
0.698,-0.809,0.651
0.69,-0.804,0.643
0.656,-0.78,0.639
0.648,-0.768,0.636
0.634,-0.768,0.628
0.624,-0.762,0.619
0.749,-0.798,0.61
0.621,-0.804,0.607
0.606,-0.807,0.612
0.581,-0.813,0.631
0.568,-0.82,0.663
0.545,-0.822,0.678
0.523,-0.823,0.705
0.511,-0.819,0.732
0.497,-0.809,0.756
0.483,-0.779,0.77
0.477,-0.724,0.784
0.465,-0.686,0.787
0.446,-0.62,0.778
0.441,-0.548,0.759
0.419,-0.517,0.743
0.393,-0.469,0.713
0.381,-0.427,0.676
0.359,-0.409,0.66
0.341,-0.387,0.634
0.337,-0.372,0.62
0.329,-0.366,0.613
0.328,-0.35,0.614
0.329,-0.347,0.616
0.33,-0.361,0.623
0.337,-0.366,0.629
0.346,-0.373,0.645
0.355,-0.392,0.655
0.362,-0.4,0.672
0.367,-0.403,0.711
0.375,-0.379,0.744
0.377,-0.343,0.761
0.376,-0.275,0.791
0.371,-0.182,0.813
0.357,-0.131,0.818
0.326,-0.036,0.822
0.313,0.024,0.793
0.313,0.05,0.785
0.322,0.102,0.775
0.325,0.127,0.759
0.329,0.134,0.733
0.339,0.12,0.728
0.341,0.245,0.719
0.322,0.13,0.727
0.476,0.107,0.737
0.384,0.16,0.765
0.36,0.203,0.767
0.3,0.329,0.757
0.266,0.354,0.707
0.37,0.149,0.666
0.397,0.14,0.675
0.417,0.195,0.694
0.387,0.325,0.682
0.36,0.355,0.68
0.368,0.392,0.689
0.356,0.402,0.699
0.352,0.428,0.705
0.352,0.432,0.69
0.294,0.473,0.671
0.281,0.419,0.726
0.371,0.382,0.747
0.393,0.386,0.79
0.371,0.39,0.816
0.349,0.389,0.819
1.09,-0.97,-0.041
1.123,-1.094,0.044
1.137,-1.147,0.129
1.233,-1.178,0.427
1.337,-1.243,0.522
1.275,-1.325,0.556
1.265,-1.402,0.584
1.259,-1.37,0.631
1.256,-1.256,0.751
1.288,-1.286,0.873
1.314,-1.299,0.938
1.244,-1.198,1.028
1.18,-1.126,1.039
1.011,-1.054,1.055
0.82,-0.976,1.038
0.724,-0.888,0.939
0.522,-0.867,0.879
0.422,-0.842,0.87
0.354,-0.84,0.795
0.119,-0.858,0.638
0.039,-0.841,0.59
0.043,-0.79,0.686
0.04,-0.783,0.664
0.054,-0.759,0.661
0.067,-0.717,0.662
0.094,-0.7,0.64
0.157,-0.708,0.627
0.212,-0.706,0.596
0.32,-0.687,0.569
0.405,-0.649,0.557
0.444,-0.625,0.531
0.508,-0.614,0.497
0.585,-0.597,0.478
0.627,-0.586,0.44
0.703,-0.575,0.409
0.755,-0.562,0.396
0.794,-0.55,0.371
0.809,-0.556,0.358
0.828,-0.565,0.347
0.83,-0.574,0.347
0.831,-0.592,0.352
0.83,-0.611,0.348
0.827,-0.642,0.352
0.853,-0.69,0.384
0.868,-0.72,0.411
0.835,-0.76,0.422
0.803,-0.812,0.405
0.801,-0.833,0.411
0.828,-0.86,0.429
0.842,-0.847,0.462
0.805,-0.99,0.499
0.864,-0.938,0.376
0.899,-0.977,0.494
0.907,-0.954,0.51
0.901,-0.936,0.509
0.901,-0.91,0.51
0.895,-0.87,0.501
0.878,-0.851,0.482
0.867,-0.807,0.473
0.861,-0.774,0.462
0.845,-0.626,0.465
0.839,-0.736,0.465
0.831,-0.713,0.464
0.823,-0.706,0.475
0.811,-0.689,0.48
0.789,-0.687,0.497
0.774,-0.694,0.518
0.769,-0.674,0.557
0.764,-0.679,0.57
0.766,-0.669,0.582
0.757,-0.657,0.589
0.738,-0.635,0.587
0.728,-0.605,0.577
0.701,-0.587,0.565
0.683,-0.546,0.562
0.68,-0.508,0.567
0.66,-0.491,0.553
0.574,-0.47,0.508
0.547,-0.422,0.488
0.528,-0.403,0.507
0.493,-0.361,0.52
0.472,-0.335,0.529
0.435,-0.293,0.532
0.402,-0.253,0.548
0.384,-0.234,0.564
0.351,-0.207,0.569
0.334,-0.19,0.57
0.299,-0.18,0.583
0.275,-0.147,0.598
0.266,-0.14,0.625
0.258,-0.128,0.625
0.251,-0.111,0.629
0.244,-0.104,0.633
0.232,-0.076,0.63
0.226,-0.048,0.616
0.216,-0.027,0.61
0.209,0.019,0.613
0.211,0.059,0.61
0.209,0.074,0.612
0.203,0.112,0.612
0.203,0.136,0.621
0.202,0.187,0.632
0.188,0.248,0.639
0.18,0.276,0.658
0.184,0.28,0.674
0.189,0.289,0.72
0.181,0.325,0.741
0.181,0.311,0.763
0.185,0.323,0.783
0.163,0.311,0.773
0.176,0.243,0.768
0.182,0.201,0.755
0.185,0.2,0.768
0.187,0.218,0.768
0.194,0.172,0.76
0.218,0.158,0.763
0.236,0.163,0.791
0.244,0.171,0.822
0.238,0.216,0.856
0.843,-0.905,-0.425
0.934,-1.052,-0.456
1.044,-1.19,-0.467
1.099,-1.32,-0.458
1.226,-1.375,-0.443
1.431,-1.434,-0.381
1.751,-1.649,-0.003
1.858,-2.242,0.059
1.815,-1.75,0.262
1.676,-1.994,0.222
1.614,-2.04,0.276
1.598,-2.013,0.619
1.714,-1.808,0.996
1.705,-1.524,1.527
1.465,-1.325,1.908
1.21,-0.934,2.027
1.123,-0.79,2.308
1.046,-0.796,2.518
0.691,-0.927,2.638
0.261,-1.22,1.792
0.061,-1.267,1.933
-0.099,-1.407,1.968
-0.398,-1.527,1.722
-0.482,-1.407,1.624
-0.549,-1.32,1.362
-0.626,-1.255,1.012
-0.567,-1.098,0.89
-0.402,-0.96,0.684
-0.331,-0.837,0.534
-0.083,-0.77,0.415
0.129,-0.66,0.371
0.25,-0.6,0.265
0.298,-0.573,0.145
0.417,-0.551,0.06
0.529,-0.516,0.029
0.587,-0.483,-0.011
0.697,-0.465,-0.024
0.836,-0.417,0.017
0.898,-0.39,0.061
0.877,-0.343,0.082
0.847,-0.287,0.11
0.845,-0.28,0.166
0.843,-0.3,0.172
0.81,-0.318,0.149
0.83,-0.399,0.156
0.869,-0.45,0.202
0.878,-0.461,0.213
0.869,-0.507,0.224
0.875,-0.514,0.29
0.892,-0.532,0.342
0.904,-0.634,0.364
0.889,-0.708,0.383
0.885,-0.8,0.422
0.875,-0.834,0.469
0.867,-0.882,0.49
0.857,-0.947,0.533
0.872,-0.98,0.56
0.88,-1.004,0.588
0.909,-0.951,0.674
0.947,-0.902,0.775
1.006,-0.904,0.807
1.027,-0.885,0.836
1.03,-0.861,0.84
1.01,-0.817,0.834
1.003,-0.78,0.818
1.008,-0.739,0.796
1.025,-0.722,0.754
1.039,-0.694,0.733
1.042,-0.657,0.68
1.046,-0.635,0.635
1.039,-0.586,0.615
1.034,-0.553,0.574
1.013,-0.48,0.555
1,-0.4,0.526
0.949,-0.356,0.392
0.862,-0.312,0.428
0.822,-0.286,0.357
0.788,-0.176,0.366
0.787,-0.134,0.379
0.783,-0.11,0.378
0.729,-0.04,0.374
0.691,-0.04,0.291
0.645,-0.015,0.286
0.636,0.018,0.319
0.615,0.025,0.327
0.6,0.051,0.346
0.572,0.07,0.377
0.537,0.108,0.395
0.521,0.155,0.424
0.478,0.177,0.451
0.434,0.224,0.462
0.414,0.257,0.479
0.375,0.273,0.491
0.34,0.324,0.496
0.325,0.38,0.499
0.3,0.394,0.489
0.295,0.28,0.51
0.309,0.264,0.535
0.302,0.368,0.549
0.268,0.428,0.576
0.246,0.439,0.61
0.239,0.597,0.621
0.249,0.388,0.538
0.306,0.369,0.549
0.337,0.422,0.569
0.329,0.608,0.551
0.224,0.633,0.563
0.259,0.665,0.589
0.357,0.67,0.615
0.376,0.638,0.631
0.384,0.641,0.645
0.389,0.677,0.653
0.382,0.648,0.676
0.372,0.65,0.686
0.349,0.624,0.705
0.346,0.596,0.729
0.343,0.587,0.869
0.352,0.54,0.778
0.346,0.523,0.793
1.004,-0.84,-0.306
1.106,-0.882,-0.28
1.213,-0.928,-0.252
1.32,-0.976,-0.224
1.365,-0.996,-0.181
1.387,-0.996,-0.088
1.517,-0.992,0.229
1.454,-1.191,0.289
1.294,-1.081,0.228
1.262,-1.129,0.33
1.095,-1.148,0.377
0.996,-1.145,0.446
0.921,-1.122,0.508
0.677,-1.126,0.564
0.509,-1.147,0.585
0.404,-1.041,0.641
0.204,-0.992,0.681
0.041,-0.88,0.66
-0.045,-0.738,0.676
-0.053,-0.711,0.729
0.013,-0.743,0.736
0.05,-0.745,0.729
0.083,-0.693,0.804
0.134,-0.72,0.763
0.184,-0.705,0.776
0.282,-0.691,0.788
0.314,-0.675,0.738
0.399,-0.662,0.69
0.519,-0.649,0.669
0.567,-0.631,0.617
0.643,-0.626,0.551
0.746,-0.569,0.527
0.848,-0.558,0.454
0.902,-0.557,0.364
0.959,-0.542,0.337
1.017,-0.571,0.325
1.039,-0.624,0.328
1.06,-0.671,0.359
1.078,-0.696,0.499
1.05,-0.723,0.412
1.013,-0.776,0.455
1.085,-0.827,0.55
1.014,-0.831,0.557
0.977,-0.905,0.543
0.899,-0.935,0.538
0.813,-0.972,0.536
0.795,-0.997,0.559
0.833,-1.021,0.573
0.85,-1.022,0.576
0.876,-1.003,0.574
0.892,-0.986,0.582
0.99,-0.957,0.632
0.982,-0.959,0.609
0.917,-0.935,0.544
0.91,-0.913,0.528
0.905,-0.889,0.524
0.905,-0.848,0.519
0.908,-0.804,0.521
0.913,-0.8,0.513
0.871,-0.78,0.513
0.839,-0.743,0.514
0.77,-0.732,0.527
0.722,-0.715,0.541
0.677,-0.717,0.575
0.651,-0.741,0.594
0.61,-0.75,0.635
0.587,-0.753,0.641
0.519,-0.733,0.665
0.489,-0.703,0.681
0.439,-0.673,0.689
0.396,-0.63,0.689
0.261,-0.602,0.687
0.362,-0.584,0.676
0.324,-0.537,0.664
0.292,-0.478,0.65
0.282,-0.415,0.654
0.274,-0.407,0.637
0.241,-0.366,0.631
0.244,-0.334,0.631
0.242,-0.319,0.629
0.234,-0.301,0.617
0.238,-0.284,0.626
0.259,-0.275,0.646
0.27,-0.26,0.649
0.27,-0.242,0.667
0.272,-0.231,0.68
0.251,-0.203,0.688
0.251,-0.159,0.727
0.246,-0.133,0.742
0.245,-0.089,0.753
0.251,-0.036,0.78
0.236,-0.012,0.767
0.233,0.024,0.766
0.237,0.074,0.778
0.238,0.091,0.779
0.209,0.127,0.787
0.209,0.152,0.81
0.262,0.153,0.814
0.268,0.171,0.815
0.272,0.167,0.806
0.284,0.167,0.8
0.306,0.172,0.815
0.324,0.172,0.813
0.341,0.142,0.815
0.357,0.111,0.804
0.357,0.096,0.831
0.428,0.031,0.841
0.399,0.177,0.88
0.346,0.35,0.881
0.256,0.339,0.853
0.316,0.228,0.847
0.341,0.222,0.848
0.335,0.273,0.855
0.294,0.332,0.842
0.281,0.351,0.856
0.3,0.351,0.858
0.299,0.335,0.864
0.299,0.311,0.86
0.303,0.28,0.85
0.548,-0.882,0.548
0.41,-0.884,0.368
0.678,-1.104,0.62
0.953,-1.382,0.706
0.608,-1.249,0.481
0.578,-1.343,0.357
0.593,-1.351,0.322
0.639,-1.388,0.321
0.727,-1.257,0.353
0.857,-1.287,0.316
0.957,-1.338,0.308
1,-1.32,0.379
1.011,-1.313,0.507
1.027,-1.286,0.658
1.011,-1.27,0.745
0.998,-1.243,0.945
0.913,-1.166,1.041
0.823,-1.131,1.218
0.766,-1.11,1.355
0.605,-1.09,1.399
0.447,-1.112,1.441
0.412,-1.005,1.426
0.3,-1.025,1.428
0.168,-0.963,1.384
0.127,-0.949,1.316
0.057,-0.867,1.274
0.007,-0.801,1.19
-0.004,-0.729,1.143
0.006,-0.712,1.098
0.042,-0.665,1.081
0.081,-0.618,1.032
0.097,-0.58,0.98
0.145,-0.566,0.957
0.203,-0.55,0.911
0.234,-0.534,0.874
0.296,-0.531,0.858
0.304,-0.518,0.799
0.362,-0.53,0.781
0.463,-0.546,0.778
0.482,-0.566,0.744
0.507,-0.578,0.713
0.558,-0.598,0.71
0.572,-0.622,0.693
0.614,-0.635,0.679
0.671,-0.652,0.66
0.691,-0.68,0.654
0.719,-0.696,0.656
0.727,-0.748,0.65
0.728,-0.775,0.644
0.716,-0.82,0.641
0.704,-0.87,0.659
0.707,-0.916,0.663
0.725,-1,0.674
0.762,-1.046,0.727
0.773,-1.104,0.777
0.727,-1.111,0.779
0.693,-1.117,0.772
0.684,-1.114,0.77
0.67,-1.098,0.757
0.644,-1.051,0.752
0.637,-1.016,0.73
0.616,-0.99,0.701
0.588,-0.967,0.689
0.562,-0.925,0.661
0.553,-0.906,0.628
0.534,-0.897,0.594
0.521,-0.869,0.575
0.515,-0.837,0.549
0.502,-0.822,0.525
0.49,-0.778,0.518
0.469,-0.726,0.511
0.459,-0.697,0.509
0.433,-0.631,0.511
0.406,-0.57,0.526
0.389,-0.536,0.545
0.359,-0.483,0.557
0.321,-0.434,0.575
0.305,-0.398,0.595
0.28,-0.347,0.63
0.267,-0.298,0.656
0.25,-0.267,0.677
0.235,-0.176,0.685
0.213,-0.081,0.714
0.191,-0.032,0.734
0.159,0.061,0.744
0.147,0.143,0.763
0.122,0.186,0.773
0.093,0.256,0.769
0.084,0.307,0.757
0.078,0.33,0.755
0.082,0.359,0.751
0.081,0.397,0.748
0.074,0.415,0.754
0.077,0.387,0.746
0.088,0.373,0.744
0.115,0.371,0.748
0.143,0.392,0.76
0.16,0.395,0.776
0.19,0.402,0.786
0.212,0.385,0.809
0.274,0.353,0.868
0.294,0.49,0.922
0.233,0.642,0.947
0.203,0.74,0.893
0.281,0.493,0.853
0.326,0.511,0.839
0.35,0.572,0.844
0.304,0.697,0.833
0.286,0.692,0.812
0.291,0.672,0.814
0.309,0.63,0.821
0.319,0.593,0.832
0.321,0.573,0.848
0.316,0.525,0.855
0.292,0.465,0.878
0.284,0.405,0.907
0.272,0.38,0.935
0.263,0.328,0.958
0.26,0.287,0.968
0.752,-1.01,-0.261
1.102,-1.412,0.076
1.059,-1.38,-0.047
0.956,-1.521,-0.114
1.008,-1.676,-0.149
1.082,-1.735,-0.076
1.261,-1.804,-0.036
1.484,-1.843,0.123
1.604,-1.875,0.33
1.721,-1.885,0.408
1.739,-1.848,0.59
1.716,-1.798,0.699
1.699,-1.683,0.922
1.629,-1.597,1.276
1.566,-1.381,1.508
1.499,-1.15,1.79
1.229,-1.025,2.041
0.705,-0.865,2.1
0.5,-0.848,2.156
0.069,-0.923,1.703
-0.279,-0.981,1.568
-0.347,-0.851,1.593
-0.359,-0.819,1.612
-0.462,-0.873,1.564
-0.7,-0.858,1.467
-0.662,-0.838,1.396
-0.54,-0.772,1.383
-0.322,-0.757,1.267
-0.177,-0.648,1.181
0.109,-0.596,1.093
0.245,-0.503,1.018
0.325,-0.42,0.899
0.587,-0.411,0.826
0.76,-0.349,0.777
0.95,-0.339,0.687
0.928,-0.349,0.575
1.038,-0.316,0.575
1.031,-0.317,0.511
1.003,-0.272,0.489
0.95,-0.279,0.515
0.887,-0.307,0.523
0.852,-0.354,0.533
0.76,-0.382,0.545
0.684,-0.426,0.553
0.63,-0.479,0.573
0.579,-0.517,0.588
0.565,-0.575,0.607
0.537,-0.589,0.641
0.48,-0.598,0.659
0.528,-0.62,0.679
0.584,-0.691,0.738
0.733,-0.761,0.769
0.648,-0.771,0.81
0.678,-0.792,0.837
0.694,-0.799,0.892
0.723,-0.804,0.925
0.741,-0.803,0.932
0.745,-0.781,0.95
0.801,-0.777,0.943
0.733,-0.716,0.94
0.719,-0.655,0.907
0.738,-0.644,0.895
0.73,-0.619,0.877
0.718,-0.612,0.837
0.703,-0.606,0.808
0.69,-0.602,0.803
0.686,-0.62,0.78
0.66,-0.623,0.752
0.623,-0.634,0.744
0.593,-0.649,0.744
0.585,-0.647,0.757
0.567,-0.658,0.761
0.549,-0.665,0.761
0.524,-0.666,0.763
0.513,-0.639,0.768
0.501,-0.615,0.781
0.485,-0.564,0.781
0.472,-0.508,0.774
0.434,-0.49,0.771
0.405,-0.475,0.777
0.395,-0.466,0.797
0.365,-0.457,0.805
0.334,-0.436,0.808
0.315,-0.421,0.807
0.311,-0.408,0.807
0.305,-0.393,0.804
0.305,-0.391,0.793
0.304,-0.391,0.784
0.302,-0.402,0.779
0.293,-0.424,0.759
0.293,-0.429,0.75
0.292,-0.42,0.751
0.286,-0.387,0.754
0.278,-0.371,0.731
0.25,-0.352,0.708
0.247,-0.315,0.685
0.244,-0.245,0.695
0.25,-0.215,0.708
0.257,-0.15,0.715
0.25,-0.086,0.697
0.227,-0.064,0.655
0.207,-0.009,0.637
0.199,0.014,0.598
0.203,0.027,0.583
0.206,0.07,0.58
0.205,0.115,0.566
0.2,0.141,0.562
0.185,0.194,0.563
0.179,0.204,0.563
0.182,0.235,0.562
0.191,0.249,0.568
0.197,0.258,0.589
0.218,0.252,0.593
0.242,0.228,0.639
0.245,0.26,0.695
0.216,0.421,0.726
0.16,0.609,0.713
0.153,0.345,0.661
0.181,0.272,0.669
0.728,-0.958,-0.752
0.766,-0.877,-0.678
0.83,-1.263,-0.91
1.203,-1.571,-0.864
1.411,-1.78,-0.719
1.757,-1.883,-0.617
2.049,-1.992,-0.566
2.549,-1.918,-0.048
2.759,-2.086,0.595
2.768,-1.958,0.569
3.259,-2.318,1.56
2.369,-2.158,0.121
1.911,-2.032,0.776
2.181,-1.537,1.406
2.125,-1.31,1.969
1.723,-1.17,2.196
1.147,-0.905,2.212
0.927,-1.008,2.465
0.371,-1.132,2.366
-0.387,-1.7,2.223
-0.722,-2.281,2.526
-0.969,-2.352,2.976
-1.223,-2.245,2.898
-1.365,-1.749,2.448
-1.319,-1.569,1.849
-0.957,-1.32,1.61
-0.608,-1.055,1.244
-0.386,-0.847,0.996
0.107,-0.778,0.758
0.45,-0.621,0.637
0.69,-0.422,0.428
0.74,-0.321,0.263
0.915,-0.156,0.194
1.07,-0.043,0.107
1.126,0.002,0.017
1.239,0.045,-0.027
1.274,0.085,-0.078
1.321,0.098,-0.083
1.293,0.086,-0.069
1.132,0.056,0.006
1.179,0.025,0.095
1.066,-0.041,0.119
1.016,-0.114,0.194
0.946,-0.143,0.288
0.882,-0.193,0.329
0.854,-0.213,0.376
0.799,-0.235,0.439
0.774,-0.293,0.481
0.76,-0.369,0.575
0.748,-0.417,0.639
0.758,-0.491,0.658
0.774,-0.552,0.719
0.803,-0.563,0.769
0.83,-0.579,0.78
0.841,-0.579,0.785
0.866,-0.583,0.774
0.868,-0.547,0.781
0.873,-0.538,0.753
0.898,-0.537,0.733
0.909,-0.49,0.74
0.905,-0.449,0.739
0.896,-0.448,0.715
0.881,-0.423,0.705
0.872,-0.403,0.693
0.865,-0.384,0.699
0.854,-0.372,0.714
0.842,-0.359,0.722
0.837,-0.385,0.729
0.816,-0.387,0.725
0.787,-0.406,0.73
0.766,-0.431,0.741
0.754,-0.447,0.756
0.734,-0.481,0.758
0.708,-0.529,0.783
0.69,-0.56,0.818
0.662,-0.595,0.833
0.633,-0.585,0.863
0.622,-0.558,0.877
0.603,-0.534,0.87
0.577,-0.488,0.861
0.548,-0.458,0.824
0.534,-0.433,0.786
0.495,-0.388,0.769
0.467,-0.353,0.726
0.449,-0.322,0.696
0.423,-0.312,0.66
0.409,-0.302,0.643
0.403,-0.3,0.611
0.39,-0.29,0.604
0.382,-0.293,0.596
0.381,-0.287,0.596
0.376,-0.295,0.606
0.38,-0.313,0.613
0.38,-0.331,0.638
0.382,-0.339,0.671
0.375,-0.334,0.695
0.358,-0.321,0.739
0.348,-0.274,0.782
0.322,-0.238,0.823
0.285,-0.154,0.839
0.267,-0.084,0.852
0.242,-0.058,0.836
0.225,-0.027,0.826
0.225,-0.013,0.814
0.225,-0.01,0.803
0.218,-0.006,0.794
0.201,0.023,0.803
0.202,-0.006,0.789
0.22,-0.007,0.773
0.235,0.009,0.769
0.231,0.018,0.751
0.238,0.027,0.745
0.242,0.055,0.748
0.238,0.063,0.749
0.241,0.088,0.743
0.244,0.12,0.741
0.249,0.136,0.744
0.261,0.179,0.743
0.268,0.188,0.741
1.273,-0.986,0.03
1.342,-1.002,0.08
1.373,-1.291,0.101
1.42,-1.402,0.332
1.539,-1.638,0.43
1.571,-1.773,0.6
1.677,-2.223,1.205
1.991,-2.311,1.921
1.236,-2.339,1.173
0.842,-1.813,0.818
0.998,-1.898,0.969
1.132,-1.78,1.476
1.043,-1.698,1.716
0.844,-1.579,1.76
0.597,-1.485,1.746
0.334,-1.352,1.727
0.078,-1.21,1.715
-0.183,-1.081,1.688
-0.334,-0.895,1.69
-0.624,-0.849,1.585
-0.912,-0.832,1.527
-1.169,-0.797,1.582
-1.209,-0.917,1.603
-1.244,-0.997,1.59
-1.062,-1.125,1.562
-0.72,-1.069,1.517
-0.587,-0.988,1.383
-0.355,-0.815,1.245
-0.128,-0.671,1.183
-0.006,-0.563,1.063
0.213,-0.512,0.907
0.413,-0.426,0.834
0.591,-0.364,0.712
0.646,-0.318,0.632
0.799,-0.301,0.511
0.759,-0.246,0.447
0.758,-0.25,0.346
0.859,-0.231,0.368
1.061,-0.266,0.37
0.908,-0.3,0.37
0.926,-0.406,0.364
0.971,-0.521,0.546
0.88,-0.568,0.592
0.765,-0.637,0.641
0.732,-0.684,0.729
0.736,-0.716,0.757
0.7,-0.752,0.759
0.696,-0.763,0.774
0.722,-0.765,0.804
0.753,-0.776,0.799
0.78,-0.768,0.793
0.78,-0.755,0.766
0.773,-0.76,0.746
0.811,-0.75,0.709
0.806,-0.736,0.679
0.795,-0.679,0.686
0.778,-0.727,0.665
0.748,-0.741,0.573
0.77,-0.558,0.683
0.624,-0.643,0.644
0.702,-0.706,0.585
0.64,-0.698,0.552
0.629,-0.696,0.63
0.644,-0.742,0.74
0.687,-0.743,0.808
0.664,-0.76,0.823
0.647,-0.745,0.854
0.627,-0.712,0.918
0.593,-0.637,0.957
0.589,-0.647,0.979
0.587,-0.619,0.959
0.537,-0.591,0.937
0.487,-0.543,0.924
0.458,-0.508,0.88
0.401,-0.493,0.82
0.353,-0.482,0.79
0.332,-0.474,0.736
0.301,-0.466,0.691
0.27,-0.451,0.671
0.25,-0.441,0.648
0.243,-0.437,0.636
0.243,-0.437,0.64
0.244,-0.442,0.652
0.248,-0.441,0.67
0.254,-0.427,0.685
0.271,-0.407,0.729
0.278,-0.393,0.754
0.292,-0.361,0.765
0.295,-0.307,0.783
0.294,-0.271,0.808
0.284,-0.186,0.816
0.264,-0.097,0.825
0.255,-0.011,0.823
0.233,0.031,0.81
0.192,0.124,0.817
0.166,0.189,0.772
0.101,0.216,0.689
0.096,0.287,0.697
0.106,0.314,0.72
0.083,0.328,0.67
0.037,0.354,0.622
0.028,0.35,0.581
0.054,0.34,0.603
0.057,0.316,0.608
0.058,0.301,0.625
0.081,0.297,0.642
0.06,0.338,0.663
0.072,0.316,0.683
0.128,0.316,0.69
0.178,0.308,0.724
0.213,0.304,0.761
0.277,0.326,0.787
0.301,0.449,0.853
0.262,0.574,0.879
0.22,0.711,0.841
0.301,0.566,0.811
0.346,0.517,0.807
0.404,0.59,0.814
0.4,0.686,0.808
0.319,0.33,1.386
0.324,0.365,1.389
0.321,0.399,1.391
0.316,0.42,1.386
0.306,0.458,1.386
0.293,0.488,1.372
0.293,0.498,1.382
0.345,0.488,1.26
0.219,0.599,1.309
0.152,0.66,1.266
0.131,0.694,1.232
0.145,0.684,1.174
0.169,0.694,1.12
0.15,0.724,1.073
0.137,0.731,1.017
0.143,0.762,0.973
0.125,0.752,0.944
0.095,0.779,0.859
0.076,0.777,0.793
0.049,0.802,0.75
0.035,0.775,0.692
0.021,0.744,0.665
-0.002,0.7,0.622
0.046,0.512,0.577
0.068,0.6,0.471
-0.047,0.59,0.498
-0.134,0.569,0.486
-0.16,0.543,0.433
-0.166,0.497,0.398
-0.158,0.423,0.375
-0.16,0.35,0.348
-0.168,0.282,0.344
-0.146,0.286,0.337
-0.168,0.239,0.327
-0.195,0.236,0.333
-0.224,0.128,0.354
-0.238,0.176,0.311
-0.249,0.17,0.284
-0.226,0.161,0.218
-0.155,0,0.275
-0.032,-0.22,0.241
-0.034,-0.086,0.208
-0.164,-0.161,0.032
-0.121,-0.278,-0.001
0.117,-0.374,0
0.14,-0.474,-0.081
0.222,-0.499,-0.164
0.329,-0.61,-0.194
0.395,-0.686,-0.215
0.517,-0.855,-0.268
0.643,-0.861,-0.335
0.793,-1.049,-0.356
0.968,-1.183,-0.409
1.099,-1.325,-0.379
1.362,-1.426,-0.227
1.386,-1.532,-0.344
1.43,-1.676,-0.443
1.627,-1.846,-0.372
1.739,-1.888,-0.347
1.842,-2.042,-0.183
1.992,-2.09,0.067
1.97,-2.09,0.395
1.794,-2.088,0.636
1.519,-2.008,1.075
1.382,-1.793,1.361
1.009,-1.574,1.464
0.609,-1.382,1.469
0.333,-1.306,1.489
0.144,-1.142,1.616
-0.203,-1.101,1.852
-0.519,-1.157,1.981
-0.7,-1.54,2.128
-1.029,-1.872,2.348
-1.201,-1.897,2.567
-1.029,-1.692,2.552
-0.725,-1.374,2.222
-0.564,-1.106,1.833
-0.248,-0.997,1.517
0.028,-0.856,1.328
0.322,-0.821,0.979
0.455,-0.819,0.624
0.589,-0.771,0.416
0.64,-0.678,0.071
0.812,-0.621,-0.099
0.977,-0.449,-0.159
1.049,-0.295,-0.266
1.151,-0.233,-0.292
1.194,-0.134,-0.265
1.196,-0.088,-0.147
1.168,-0.104,0.007
1.097,-0.189,0.098
1.057,-0.31,0.274
0.976,-0.382,0.411
0.895,-0.524,0.466
0.845,-0.609,0.529
0.74,-0.637,0.541
0.692,-0.712,0.522
0.69,-0.747,0.51
0.701,-0.809,0.499
0.71,-0.877,0.483
0.712,-0.915,0.491
0.702,-0.925,0.501
0.704,-0.927,0.524
0.701,-0.892,0.542
0.694,-0.854,0.547
0.733,-0.822,0.575
0.743,-0.79,0.57
0.744,-0.765,0.561
0.735,-0.716,0.564
0.735,-0.687,0.579
0.743,-0.691,0.585
0.742,-0.712,0.578
0.739,-0.703,0.574
0.75,-0.73,0.574
0.718,-0.722,0.593
0.711,-0.734,0.63
0.688,-0.75,0.63
0.639,-0.739,0.639
0.621,-0.718,0.664
0.597,-0.685,0.731
0.576,-0.662,0.733
0.544,-0.646,0.715
0.541,-0.624,0.708
0.528,-0.573,0.723
0.535,-0.555,0.744
0.531,-0.568,0.725
0.504,-0.563,0.698
0.464,-0.551,0.687
0.434,-0.548,0.675
0.42,-0.546,0.671
0.392,-0.534,0.675
0.37,-0.505,0.686
0.363,-0.478,0.691
0.344,-0.457,0.695
0.305,-0.4,0.719
0.297,-0.358,0.731
0.273,-0.338,0.735
0.266,-0.299,0.739
0.255,-0.257,0.745
0.248,-0.234,0.756
0.232,-0.187,0.76
0.209,-0.143,0.766
0.201,-0.094,0.773
0.173,-0.076,0.765
0.147,-0.043,0.759
0.139,-0.032,0.746
0.136,-0.039,0.733
0.144,-0.044,0.73
0.146,-0.033,0.739
0.151,-0.033,0.742
0.146,-0.02,0.742
0.142,-0.025,0.74
0.132,-0.021,0.712
0.137,0.023,0.742
0.145,0.085,0.794
0.137,0.163,0.828
0.14,0.2,0.847
0.14,0.263,0.874
0.133,0.312,0.875
0.131,0.357,0.883
0.131,0.372,0.885
0.142,0.397,0.889
0.154,0.407,0.907
0.174,0.422,0.911
0.181,0.405,0.907
0.202,0.406,0.886
0.202,0.407,0.883
0.214,0.401,0.883
0.23,0.382,0.889
0.239,0.368,0.883
0.246,0.329,0.88
0.258,0.315,0.89
0.275,0.275,0.912
0.255,0.384,0.948
0.187,0.428,0.98
0.139,0.407,0.969
0.182,0.298,0.949
0.188,0.297,0.971
0.19,0.329,0.981
0.188,0.331,1.002
0.183,0.338,1.015
0.183,0.338,1.023
0.187,0.321,1.033
0.195,0.306,1.036
0.213,0.296,1.04
0.233,0.283,1.043
0.252,0.265,1.049
0.264,0.253,1.055
0.276,0.243,1.054
0.286,0.231,1.053
0.307,0.229,1.055
0.31,0.221,1.057
0.32,0.217,1.064
0.323,0.21,1.066
0.326,0.207,1.071
0.329,0.201,1.077
0.327,0.19,1.086
0.325,0.183,1.105
0.316,0.161,1.111
0.312,0.143,1.112
0.304,0.138,1.127
0.299,0.124,1.131
0.296,0.118,1.141
0.3,0.108,1.144
0.303,0.105,1.144
0.309,0.091,1.138
0.3,0.088,1.134
0.297,0.076,1.127
0.298,0.065,1.121
0.305,0.051,1.12
0.312,0.034,1.117
0.318,0.027,1.11
0.324,0.015,1.11
0.328,-0.002,1.109
0.35,-0.003,1.109
0.33,0.002,1.117
0.324,-0.006,1.127
0.31,-0.013,1.128
0.305,-0.029,1.129
0.308,-0.038,1.16
0.294,-0.053,1.14
0.279,-0.061,1.146
0.271,-0.062,1.158
0.26,-0.062,1.174
0.248,-0.067,1.178
0.229,-0.069,1.181
0.226,-0.076,1.183
0.225,-0.077,1.175
0.217,-0.082,1.173
0.216,-0.082,1.168
0.214,-0.078,1.155
0.212,-0.072,1.146
0.209,-0.064,1.14
0.208,-0.059,1.127
0.215,-0.056,1.124
0.223,-0.052,1.128
0.224,-0.039,1.126
0.224,-0.03,1.134
0.917,-1.095,-0.103
0.977,-1.208,-0.102
1.057,-1.288,-0.101
1.122,-1.413,-0.087
1.178,-1.532,-0.06
1.247,-1.829,0.239
1.317,-1.81,0.302
1.257,-1.804,0.369
1.355,-2.104,0.7
1.405,-1.949,1.071
1.033,-1.878,1.024
0.896,-1.749,0.925
0.932,-1.774,1.085
0.944,-1.571,1.284
0.883,-1.292,1.638
0.775,-1.219,1.718
0.601,-1.18,1.745
0.333,-1.046,1.757
0.173,-1.013,1.745
-0.11,-1.026,1.752
-0.359,-1.157,1.755
-0.436,-1.353,1.776
-0.527,-1.344,1.807
-0.53,-1.369,1.8
-0.549,-1.245,1.661
-0.508,-1.173,1.486
-0.338,-1.08,1.403
-0.169,-1.002,1.249
0.041,-0.943,1.11
0.118,-0.891,0.975
0.295,-0.883,0.826
0.392,-0.863,0.742
0.437,-0.798,0.593
0.536,-0.767,0.485
0.61,-0.704,0.428
0.668,-0.643,0.34
0.695,-0.595,0.281
0.729,-0.569,0.264
0.739,-0.524,0.273
0.735,-0.503,0.291
0.714,-0.507,0.32
0.699,-0.544,0.338
0.691,-0.599,0.376
0.677,-0.623,0.413
0.653,-0.678,0.426
0.629,-0.732,0.448
0.62,-0.758,0.464
0.604,-0.808,0.469
0.601,-0.863,0.479
0.606,-0.88,0.477
0.609,-0.921,0.481
0.61,-0.958,0.503
0.605,-0.944,0.521
0.62,-0.965,0.547
0.624,-0.999,0.541
0.633,-0.998,0.546
0.629,-0.959,0.568
0.623,-0.939,0.589
0.603,-0.915,0.594
0.59,-0.871,0.608
0.583,-0.799,0.638
0.578,-0.756,0.658
0.571,-0.689,0.685
0.538,-0.675,0.665
0.511,-0.637,0.65
0.49,-0.602,0.627
0.482,-0.569,0.608
0.467,-0.561,0.592
0.452,-0.524,0.59
0.443,-0.505,0.582
0.431,-0.49,0.569
0.421,-0.471,0.563
0.416,-0.435,0.548
0.399,-0.417,0.542
0.384,-0.36,0.544
0.376,-0.299,0.554
0.359,-0.266,0.563
0.341,-0.197,0.569
0.329,-0.131,0.581
0.304,-0.093,0.607
0.273,-0.019,0.619
0.233,0.032,0.622
0.219,0.097,0.63
0.202,0.13,0.651
0.185,0.159,0.657
0.182,0.171,0.655
0.184,0.174,0.666
0.193,0.183,0.674
0.198,0.186,0.69
0.206,0.182,0.698
0.211,0.181,0.708
0.218,0.178,0.716
0.229,0.19,0.725
0.232,0.213,0.74
0.242,0.226,0.749
0.252,0.257,0.773
0.258,0.278,0.796
0.262,0.333,0.813
0.26,0.368,0.84
0.258,0.391,0.859
0.263,0.432,0.879
0.274,0.442,0.902
0.262,0.43,0.935
0.269,0.468,0.968
0.219,0.617,1.013
0.17,0.675,0.967
0.176,0.508,0.931
0.232,0.327,0.907
0.25,0.339,0.921
0.242,0.393,0.93
0.229,0.39,0.925
0.239,0.351,0.923
0.236,0.34,0.938
0.231,0.31,0.948
0.229,0.29,0.959
0.225,0.284,0.972
0.23,0.276,0.997
0.223,0.285,1.12
0.238,0.295,1.033
0.729,-1.195,-0.474
0.736,-1.412,-0.456
0.838,-1.518,-0.405
0.917,-1.698,-0.345
1.053,-1.769,-0.359
1.164,-1.915,-0.254
1.249,-2.059,-0.21
1.322,-2.097,0.51
1.387,-2.261,0.336
1.306,-2.198,-0.324
1.238,-2.125,-0.098
1.162,-1.993,0.479
1.172,-1.861,0.71
1.169,-1.79,1.23
1.101,-1.678,1.75
0.816,-1.667,2.221
0.281,-1.988,2.511
-0.379,-2.429,2.593
-0.775,-2.303,3.152
-1.354,-2.17,3.38
-1.457,-1.714,3.416
-1.41,-1.345,3.063
-1.122,-1.155,2.468
-0.884,-0.98,2.082
-0.399,-0.912,1.519
-0.119,-0.906,0.996
0.368,-0.898,0.519
0.623,-0.805,0.327
0.644,-0.719,0.012
0.615,-0.617,-0.231
0.628,-0.542,-0.414
0.717,-0.397,-0.457
0.773,-0.418,-0.487
0.853,-0.422,-0.37
0.869,-0.485,-0.276
0.805,-0.502,-0.06
0.777,-0.524,0.187
0.751,-0.55,0.421
0.731,-0.582,0.508
0.719,-0.59,0.606
0.714,-0.592,0.614
0.719,-0.613,0.593
0.725,-0.682,0.545
0.719,-0.744,0.516
0.695,-0.767,0.495
0.667,-0.795,0.488
0.655,-0.794,0.467
0.643,-0.783,0.454
0.63,-0.749,0.452
0.622,-0.716,0.452
0.62,-0.704,0.451
0.619,-0.686,0.454
0.619,-0.639,0.459
0.609,-0.647,0.477
0.599,-0.67,0.468
0.61,-0.693,0.475
0.61,-0.731,0.478
0.603,-0.75,0.484
0.582,-0.766,0.495
0.585,-0.798,0.517
0.581,-0.79,0.594
0.558,-0.804,0.643
0.524,-0.811,0.69
0.496,-0.77,0.743
0.473,-0.724,0.757
0.453,-0.666,0.775
0.446,-0.608,0.778
0.442,-0.581,0.761
0.433,-0.539,0.745
0.422,-0.5,0.712
0.421,-0.46,0.678
0.415,-0.44,0.657
0.416,-0.403,0.616
0.414,-0.373,0.585
0.417,-0.36,0.569
0.417,-0.339,0.566
0.414,-0.303,0.566
0.414,-0.281,0.584
0.411,-0.221,0.594
0.403,-0.148,0.619
0.395,-0.076,0.647
0.363,-0.039,0.674
0.319,0.037,0.691
0.267,0.108,0.731
0.242,0.158,0.768
0.195,0.182,0.802
0.154,0.219,0.82
0.123,0.229,0.841
0.094,0.241,0.874
0.089,0.248,0.913
0.088,0.253,0.941
0.09,0.259,0.964
0.095,0.272,0.971
0.1,0.283,0.969
0.119,0.29,0.972
0.141,0.307,0.978
0.149,0.337,0.973
0.157,0.352,0.97
0.17,0.384,0.975
0.141,0.429,0.927
0.123,0.448,0.957
0.166,0.468,0.974
0.163,0.465,0.954
0.149,0.465,0.95
0.151,0.469,0.955
0.142,0.477,0.972
0.138,0.473,0.984
0.151,0.434,0.989
0.153,0.415,1.008
0.153,0.38,1.009
0.152,0.395,1.036
0.135,0.401,1.032
0.125,0.363,1.037
0.088,0.408,1.031
0.08,0.255,1.005
0.123,0.33,1.016
0.154,0.334,1.014
0.152,0.342,0.996
0.154,0.345,0.986
-0.773,0.513,1.317
-0.154,-0.028,0.976
-0.185,-0.16,1.116
-0.243,0.056,1.111
-0.188,0.054,1.061
-0.192,0.119,1.081
-0.19,0.102,1.085
-0.188,0.101,1.079
-0.221,0.109,1.079
-0.243,0.117,1.086
-0.211,0.085,1.052
-0.232,0.101,1.066
-0.215,0.09,1.038
-0.22,0.095,1.028
-0.227,0.106,1.037
-0.245,0.102,1.031
-0.221,0.091,1.002
-0.232,0.073,0.998
-0.208,0.07,0.985
-0.21,0.08,0.978
-0.211,0.057,0.957
-0.193,0.061,0.951
-0.203,0.064,0.947
-0.198,0.061,0.944
-0.184,0.053,0.932
-0.186,0.069,0.936
-0.209,0.063,0.948
-0.179,0.041,0.93
-0.185,0.081,0.948
-0.189,0.076,0.958
-0.208,0.077,0.972
-0.165,0.056,0.955
-0.172,0.089,0.963
-0.178,0.084,0.986
-0.178,0.094,0.966
-0.157,0.072,0.957
-0.149,0.071,0.959
-0.199,0.112,1.002
-0.142,0.052,0.95
-0.176,0.103,0.977
-0.197,0.055,0.973
-0.165,0.082,0.962
-0.165,0.077,0.972
-0.155,0.047,0.965
-0.22,0.113,1.004
-0.122,0.01,0.961
-0.15,0.076,0.991
-0.127,0.062,0.963
-0.192,0.128,0.99
-0.019,0.016,0.969
-0.132,0.046,0.962
-0.178,0.018,0.991
-0.327,-0.176,1.146
-0.251,-0.076,1.078
-0.136,0.088,1.05
-0.001,0.042,0.962
-0.102,0.028,0.968
-0.159,0.034,1.013
-0.107,0.009,1.008
-0.119,0.041,1.043
-0.12,0.021,1.022
-0.122,0.046,1.007
-0.12,0.059,1.004
-0.166,0.041,0.99
-0.152,0.025,0.991
-0.149,0.035,0.976
-0.165,0.048,1
-0.151,0.032,1
-0.222,0.04,1.013
-0.137,0.019,0.965
-0.142,0.05,1.001
-0.184,0.025,0.884
-0.16,0.046,0.974
-0.153,0.038,0.974
-0.154,0.07,0.979
-0.155,0.103,0.969
-0.124,0.041,0.943
-0.16,0.058,0.965
-0.159,0.032,0.962
-0.145,0.045,0.968
-0.167,0.063,0.997
-0.129,0.125,0.995
-0.136,0.167,0.98
-0.12,0.176,0.896
-0.182,0.209,0.772
-0.191,0.171,0.757
-0.196,0.021,0.789
-0.197,-0.012,0.843
-0.155,-0.163,0.878
-0.121,-0.137,1.017
-0.107,-0.144,1.087
-0.072,-0.129,1.109
-0.083,-0.111,1.123
-0.095,-0.109,1.116
-0.088,-0.097,1.104
-0.104,-0.086,1.074
-0.068,-0.109,1.038
-0.107,-0.07,1.03
-0.126,-0.078,0.977
-0.138,-0.084,0.973
-0.154,-0.044,0.996
-0.132,-0.248,0.975
-0.183,-0.089,1.124
-0.112,-0.047,1.109
-0.101,-0.083,1.07
-0.126,-0.125,0.991
-0.16,-0.077,0.999
-0.153,-0.083,0.959
-0.151,-0.082,0.97
-0.142,-0.115,0.965
-0.16,-0.104,0.976
-0.122,-0.08,0.976
-0.158,-0.075,0.989
-0.163,-0.092,0.999
-0.145,-0.079,1.118
-0.139,-0.068,1.004
-0.141,-0.079,0.989
-0.149,-0.093,0.996
-0.142,-0.072,0.997
